trials.thisRepN,trials.thisTrialN,trials.thisN,trials.thisIndex,num_distr,fixation.started,target.started,mouse.started,mouse.x,mouse.y,mouse.leftButton,mouse.midButton,mouse.rightButton,mouse.time,mouse.clicked_name,participant,session,date,expName,psychopyVersion,frameRate,
0,0,0,0,10,9.076498290999552,9.076498290999552,0.01906295900062105,[0.012222222222222223],[0.052222222222222225],[1],[0],[0],[3.8207289160000073],['target'],278004,001,2022-09-16_11h48.57.323,lab psych tut 3,2022.2.4,59.688946098977496,
1,0,1,0,10,12.853578833000029,12.853578833000029,0.015645167000002402,[-0.4711111111111111],[-0.32222222222222224],[1],[0],[0],[2.0136722089991963],['target'],278004,001,2022-09-16_11h48.57.323,lab psych tut 3,2022.2.4,59.688946098977496,
2,0,2,0,5,14.87785412500034,14.87785412500034,0.008742167000491463,[-0.41444444444444445],[-0.16555555555555557],[1],[0],[0],[1.2044207499993718],['target'],278004,001,2022-09-16_11h48.57.323,lab psych tut 3,2022.2.4,59.688946098977496,
3,0,3,0,10,16.105947125000057,16.105947125000057,0.018483916000150202,[-0.20777777777777778],[-0.33111111111111113],[1],[0],[0],[1.6456747920001362],['target'],278004,001,2022-09-16_11h48.57.323,lab psych tut 3,2022.2.4,59.688946098977496,
4,0,4,0,5,17.762142040999606,17.762142040999606,0.009024040999975114,[-0.1922222222222222],[0.20555555555555555],[1],[0],[0],[1.5704453329999524],['target'],278004,001,2022-09-16_11h48.57.323,lab psych tut 3,2022.2.4,59.688946098977496,
5,0,5,0,5,19.346438749999834,19.346438749999834,0.010281249999934516,[-0.4888888888888889],[-0.3988888888888889],[1],[0],[0],[1.4199332500002129],['target'],278004,001,2022-09-16_11h48.57.323,lab psych tut 3,2022.2.4,59.688946098977496,
6,0,6,0,5,20.77989895799965,20.77989895799965,0.010331374999623222,[0.11],[-0.26],[1],[0],[0],[1.4696296250003797],['target'],278004,001,2022-09-16_11h48.57.323,lab psych tut 3,2022.2.4,59.688946098977496,
7,0,7,0,10,22.271484666000106,22.271484666000106,0.017407792000085465,[0.06333333333333334],[-0.26],[1],[0],[0],[1.0956039169996075],['target'],278004,001,2022-09-16_11h48.57.323,lab psych tut 3,2022.2.4,59.688946098977496,
8,0,8,0,10,23.384675000000243,23.384675000000243,0.01530645899947558,[0.10666666666666667],[0.1711111111111111],[1],[0],[0],[1.8483076669999718],['target'],278004,001,2022-09-16_11h48.57.323,lab psych tut 3,2022.2.4,59.688946098977496,
9,0,9,0,10,25.250835666000057,25.250835666000057,0.014748207999218721,[-0.21444444444444444],[0.21222222222222223],[1],[0],[0],[1.3654509999996662],['target'],278004,001,2022-09-16_11h48.57.323,lab psych tut 3,2022.2.4,59.688946098977496,
10,0,10,0,5,26.62633383299999,26.62633383299999,0.008742875000280037,[0.26],[0.18666666666666668],[1],[0],[0],[1.5073252920001323],['target'],278004,001,2022-09-16_11h48.57.323,lab psych tut 3,2022.2.4,59.688946098977496,
11,0,11,0,5,28.150396375000128,28.150396375000128,0.01187233299970103,[0.3433333333333333],[-0.12444444444444444],[1],[0],[0],[2.5166945830005716],['target'],278004,001,2022-09-16_11h48.57.323,lab psych tut 3,2022.2.4,59.688946098977496,
12,0,12,0,10,30.69061904099999,30.69061904099999,0.019175291000465222,[0.18333333333333332],[0.43333333333333335],[1],[0],[0],[1.8929957089994787],['target'],278004,001,2022-09-16_11h48.57.323,lab psych tut 3,2022.2.4,59.688946098977496,
13,0,13,0,10,32.60112695800035,32.60112695800035,0.01529233299970656,[-0.4222222222222222],[-0.19666666666666666],[1],[0],[0],[1.4822515830001066],['target'],278004,001,2022-09-16_11h48.57.323,lab psych tut 3,2022.2.4,59.688946098977496,
14,0,14,0,10,34.102822040999854,34.102822040999854,0.015991000000212807,[-0.4255555555555556],[0.33111111111111113],[1],[0],[0],[1.2806919579998066],['target'],278004,001,2022-09-16_11h48.57.323,lab psych tut 3,2022.2.4,59.688946098977496,
15,0,15,0,5,35.393554958000095,35.393554958000095,0.008921458999793686,[0.12444444444444444],[-0.10444444444444445],[1],[0],[0],[1.3892620409997107],['target'],278004,001,2022-09-16_11h48.57.323,lab psych tut 3,2022.2.4,59.688946098977496,
16,0,16,0,10,36.803902665999885,36.803902665999885,0.016583125000579457,[0.12444444444444444],[-0.12777777777777777],[1],[0],[0],[0.7464353750001465],['target'],278004,001,2022-09-16_11h48.57.323,lab psych tut 3,2022.2.4,59.688946098977496,
17,0,17,0,5,37.55978316599976,37.55978316599976,0.0082038750006177,[-0.19666666666666666],[-0.4166666666666667],[1],[0],[0],[1.2561083749997124],['target'],278004,001,2022-09-16_11h48.57.323,lab psych tut 3,2022.2.4,59.688946098977496,
18,0,18,0,5,38.82973366599981,38.82973366599981,0.009834458999648632,[-0.12666666666666668],[0.11555555555555555],[1],[0],[0],[1.286361874999784],['target'],278004,001,2022-09-16_11h48.57.323,lab psych tut 3,2022.2.4,59.688946098977496,
19,0,19,0,5,40.12858645800043,40.12858645800043,0.009417041999768117,[0.06666666666666667],[-0.4677777777777778],[1],[0],[0],[1.2547609579996788],['target'],278004,001,2022-09-16_11h48.57.323,lab psych tut 3,2022.2.4,59.688946098977496,
20,0,20,0,10,41.404565791000095,41.404565791000095,0.017104291000578087,[-0.13777777777777778],[-0.03888888888888889],[1],[0],[0],[1.046595165999861],['target'],278004,001,2022-09-16_11h48.57.323,lab psych tut 3,2022.2.4,59.688946098977496,
21,0,21,0,5,42.46128108300036,42.46128108300036,0.008880665999640769,[-0.0044444444444444444],[-0.29555555555555557],[1],[0],[0],[1.1390624999994543],['target'],278004,001,2022-09-16_11h48.57.323,lab psych tut 3,2022.2.4,59.688946098977496,
22,0,22,0,10,43.62326154099992,43.62326154099992,0.01794954199976928,[0.43777777777777777],[-0.08333333333333333],[1],[0],[0],[1.3942442500001562],['target'],278004,001,2022-09-16_11h48.57.323,lab psych tut 3,2022.2.4,59.688946098977496,
23,0,23,0,5,45.02756283300005,45.02756283300005,0.008975333000307728,[0.4955555555555556],[-0.01],[1],[0],[0],[1.055179124999995],['target'],278004,001,2022-09-16_11h48.57.323,lab psych tut 3,2022.2.4,59.688946098977496,
24,0,24,0,10,46.10774083300021,46.10774083300021,0.019390499999644817,[0.21555555555555556],[-0.05333333333333334],[1],[0],[0],[0.9429266249999273],['target'],278004,001,2022-09-16_11h48.57.323,lab psych tut 3,2022.2.4,59.688946098977496,
25,0,25,0,5,47.06028516599963,47.06028516599963,0.008632584000224597,[0.12666666666666668],[0.15333333333333332],[1],[0],[0],[1.222677582999495],['target'],278004,001,2022-09-16_11h48.57.323,lab psych tut 3,2022.2.4,59.688946098977496,
26,0,26,0,5,48.29629604099955,48.29629604099955,0.00950608299990563,[0.3988888888888889],[0.47555555555555556],[1],[0],[0],[1.787960749999911],['target'],278004,001,2022-09-16_11h48.57.323,lab psych tut 3,2022.2.4,59.688946098977496,
27,0,27,0,5,50.097236665999844,50.097236665999844,0.009581917000105022,[-0.33666666666666667],[-0.13666666666666666],[1],[0],[0],[1.386554000000615],['target'],278004,001,2022-09-16_11h48.57.323,lab psych tut 3,2022.2.4,59.688946098977496,
28,0,28,0,5,51.49780879100035,51.49780879100035,0.010560249999798543,[0.36333333333333334],[-0.24222222222222223],[1],[0],[0],[1.552635709000242],['target'],278004,001,2022-09-16_11h48.57.323,lab psych tut 3,2022.2.4,59.688946098977496,
29,0,29,0,10,53.07114020799963,53.07114020799963,0.01668458299991471,[-0.09666666666666666],[-0.4211111111111111],[1],[0],[0],[1.6302363329996297],['target'],278004,001,2022-09-16_11h48.57.323,lab psych tut 3,2022.2.4,59.688946098977496,
30,0,30,0,10,54.71925674999966,54.71925674999966,0.01541575000010198,[0.37],[-0.4766666666666667],[1],[0],[0],[3.6152042920002714],['target'],278004,001,2022-09-16_11h48.57.323,lab psych tut 3,2022.2.4,59.688946098977496,
31,0,31,0,5,58.344710833000136,58.344710833000136,0.008684082999934617,[0.47333333333333333],[0.18222222222222223],[1],[0],[0],[1.3388842080003087],['target'],278004,001,2022-09-16_11h48.57.323,lab psych tut 3,2022.2.4,59.688946098977496,
32,0,32,0,10,59.70630700000038,59.70630700000038,0.01768141699994885,[0.23333333333333334],[0.4666666666666667],[1],[0],[0],[1.244170999999369],['target'],278004,001,2022-09-16_11h48.57.323,lab psych tut 3,2022.2.4,59.688946098977496,
33,0,33,0,10,60.96791770799973,60.96791770799973,0.014802833999965515,[-0.23],[0.0022222222222222222],[1],[0],[0],[2.632783625000229],['target'],278004,001,2022-09-16_11h48.57.323,lab psych tut 3,2022.2.4,59.688946098977496,
34,0,34,0,10,63.619270125000185,63.619270125000185,0.015701667000030284,[0.48777777777777775],[-0.47888888888888886],[1],[0],[0],[1.2650780000003579],['target'],278004,001,2022-09-16_11h48.57.323,lab psych tut 3,2022.2.4,59.688946098977496,
35,0,35,0,10,64.90297474999988,64.90297474999988,0.015406540999720164,[0.33],[0.08222222222222222],[1],[0],[0],[1.6148033340004986],['target'],278004,001,2022-09-16_11h48.57.323,lab psych tut 3,2022.2.4,59.688946098977496,
36,0,36,0,5,66.52792429100009,66.52792429100009,0.008825750000141852,[-0.06555555555555556],[-0.005555555555555556],[1],[0],[0],[1.355462916999386],['target'],278004,001,2022-09-16_11h48.57.323,lab psych tut 3,2022.2.4,59.688946098977496,
37,0,37,0,10,67.90629524999986,67.90629524999986,0.017758375000084925,[-0.2633333333333333],[-0.25555555555555554],[1],[0],[0],[1.0446890410003107],['target'],278004,001,2022-09-16_11h48.57.323,lab psych tut 3,2022.2.4,59.688946098977496,
38,0,38,0,10,68.9695638330004,68.9695638330004,0.016062791999502224,[0.1688888888888889],[0.17888888888888888],[1],[0],[0],[1.231888417000846],['target'],278004,001,2022-09-16_11h48.57.323,lab psych tut 3,2022.2.4,59.688946098977496,
39,0,39,0,5,70.21137841600012,70.21137841600012,0.008366458000637067,[0.057777777777777775],[-0.21444444444444444],[1],[0],[0],[1.1388043750002907],['target'],278004,001,2022-09-16_11h48.57.323,lab psych tut 3,2022.2.4,59.688946098977496,
40,0,40,0,10,71.37304145799953,71.37304145799953,0.017650541999501,[-0.24],[-0.21555555555555556],[1],[0],[0],[1.0617575419992136],['target'],278004,001,2022-09-16_11h48.57.323,lab psych tut 3,2022.2.4,59.688946098977496,
41,0,41,0,5,72.44490570800008,72.44490570800008,0.008925709000322968,[0.39555555555555555],[-0.0022222222222222222],[1],[0],[0],[1.256079917000534],['target'],278004,001,2022-09-16_11h48.57.323,lab psych tut 3,2022.2.4,59.688946098977496,
42,0,42,0,10,73.72316950000004,73.72316950000004,0.017074999999749707,[0.45222222222222225],[0.20333333333333334],[1],[0],[0],[1.261108750000858],['target'],278004,001,2022-09-16_11h48.57.323,lab psych tut 3,2022.2.4,59.688946098977496,
43,0,43,0,5,74.99410833299953,74.99410833299953,0.008757749999858788,[-0.4266666666666667],[0.3011111111111111],[1],[0],[0],[1.5730069999999614],['target'],278004,001,2022-09-16_11h48.57.323,lab psych tut 3,2022.2.4,59.688946098977496,
44,0,44,0,10,76.58823241600021,76.58823241600021,0.016461791000438097,[0.011111111111111112],[-0.19333333333333333],[1],[0],[0],[1.162898500000665],['target'],278004,001,2022-09-16_11h48.57.323,lab psych tut 3,2022.2.4,59.688946098977496,
45,0,45,0,5,77.76154258299994,77.76154258299994,0.008900583000468032,[0.5],[0.31666666666666665],[1],[0],[0],[1.4053556249991743],['target'],278004,001,2022-09-16_11h48.57.323,lab psych tut 3,2022.2.4,59.688946098977496,
46,0,46,0,10,79.18854645800002,79.18854645800002,0.01648479200048314,[-0.1288888888888889],[-0.4722222222222222],[1],[0],[0],[1.3961411669997688],['target'],278004,001,2022-09-16_11h48.57.323,lab psych tut 3,2022.2.4,59.688946098977496,
47,0,47,0,10,80.60250004099998,80.60250004099998,0.015508666999267007,[-0.1711111111111111],[-0.011111111111111112],[1],[0],[0],[1.0818587080002544],['target'],278004,001,2022-09-16_11h48.57.323,lab psych tut 3,2022.2.4,59.688946098977496,
48,0,48,0,10,81.70192720799969,81.70192720799969,0.014934666999579349,[0.49333333333333335],[-0.05444444444444444],[1],[0],[0],[1.1493609999997716],['target'],278004,001,2022-09-16_11h48.57.323,lab psych tut 3,2022.2.4,59.688946098977496,
49,0,49,0,5,82.86229379100041,82.86229379100041,0.008828625000205648,[-0.39111111111111113],[-0.3],[1],[0],[0],[1.1225116670002535],['target'],278004,001,2022-09-16_11h48.57.323,lab psych tut 3,2022.2.4,59.688946098977496,
50,0,50,0,5,83.99779162499999,83.99779162499999,0.009522332999949867,[-0.24555555555555555],[0.015555555555555555],[1],[0],[0],[1.185739458000171],['target'],278004,001,2022-09-16_11h48.57.323,lab psych tut 3,2022.2.4,59.688946098977496,
51,0,51,0,5,85.19587954100007,85.19587954100007,0.009253290999367891,[-0.1111111111111111],[0.10777777777777778],[1],[0],[0],[0.8553237919995809],['target'],278004,001,2022-09-16_11h48.57.323,lab psych tut 3,2022.2.4,59.688946098977496,
52,0,52,0,10,86.07426295799996,86.07426295799996,0.01808466700003919,[-0.4811111111111111],[-0.23222222222222222],[1],[0],[0],[1.0771798750001835],['target'],278004,001,2022-09-16_11h48.57.323,lab psych tut 3,2022.2.4,59.688946098977496,
53,0,53,0,10,87.16905962500005,87.16905962500005,0.015487166999264446,[-0.38555555555555554],[0.03666666666666667],[1],[0],[0],[1.2148817919996873],['target'],278004,001,2022-09-16_11h48.57.323,lab psych tut 3,2022.2.4,59.688946098977496,
54,0,54,0,10,88.4019119579998,88.4019119579998,0.014813124999818683,[0.008888888888888889],[-0.13555555555555557],[1],[0],[0],[1.0157730840001022],['target'],278004,001,2022-09-16_11h48.57.323,lab psych tut 3,2022.2.4,59.688946098977496,
55,0,55,0,10,89.43654079099997,89.43654079099997,0.015789458999279304,[0.36],[-0.05333333333333334],[1],[0],[0],[0.8648365409999315],['target'],278004,001,2022-09-16_11h48.57.323,lab psych tut 3,2022.2.4,59.688946098977496,
56,0,56,0,5,90.31125470799998,90.31125470799998,0.008517416000358935,[-0.22],[0.34],[1],[0],[0],[1.5566786250001314],['target'],278004,001,2022-09-16_11h48.57.323,lab psych tut 3,2022.2.4,59.688946098977496,
57,0,57,0,5,91.88157720799973,91.88157720799973,0.009704834000331175,[-0.43],[-0.04777777777777778],[1],[0],[0],[1.0703924159997769],['target'],278004,001,2022-09-16_11h48.57.323,lab psych tut 3,2022.2.4,59.688946098977496,
58,0,58,0,10,92.97286258300028,92.97286258300028,0.01661316700028692,[0.08555555555555555],[0.4955555555555556],[1],[0],[0],[1.9788581669999985],['target'],278004,001,2022-09-16_11h48.57.323,lab psych tut 3,2022.2.4,59.688946098977496,
59,0,59,0,10,94.96992950000003,94.96992950000003,0.01548358400032157,[-0.11],[0.2544444444444444],[1],[0],[0],[1.1480282080001416],['target'],278004,001,2022-09-16_11h48.57.323,lab psych tut 3,2022.2.4,59.688946098977496,
60,0,60,0,10,96.13626424999984,96.13626424999984,0.015489000000343367,[-0.47444444444444445],[0.26],[1],[0],[0],[1.3146113329994478],['target'],278004,001,2022-09-16_11h48.57.323,lab psych tut 3,2022.2.4,59.688946098977496,
61,0,61,0,5,97.46056366599987,97.46056366599987,0.008327167000061308,[0.1],[-0.4311111111111111],[1],[0],[0],[1.2737039170006028],['target'],278004,001,2022-09-16_11h48.57.323,lab psych tut 3,2022.2.4,59.688946098977496,
62,0,62,0,10,98.75538233299994,98.75538233299994,0.016610499999842432,[0.2677777777777778],[0.04111111111111111],[1],[0],[0],[1.2956212499993853],['target'],278004,001,2022-09-16_11h48.57.323,lab psych tut 3,2022.2.4,59.688946098977496,
63,0,63,0,10,100.06866470800014,100.06866470800014,0.014917167000021436,[0.13],[-0.20444444444444446],[1],[0],[0],[0.9827348750004603],['target'],278004,001,2022-09-16_11h48.57.323,lab psych tut 3,2022.2.4,59.688946098977496,
64,0,64,0,10,101.06969995799955,101.06969995799955,0.015382958999907714,[0.16],[0.03111111111111111],[1],[0],[0],[0.8832681249996313],['target'],278004,001,2022-09-16_11h48.57.323,lab psych tut 3,2022.2.4,59.688946098977496,
65,0,65,0,5,101.96317429099963,101.96317429099963,0.00861020800039114,[0.4711111111111111],[-0.12777777777777777],[1],[0],[0],[1.154358207999394],['target'],278004,001,2022-09-16_11h48.57.323,lab psych tut 3,2022.2.4,59.688946098977496,
66,0,66,0,5,103.13149433299986,103.13149433299986,0.010350166000534955,[-0.3466666666666667],[-0.21777777777777776],[1],[0],[0],[1.1528688329999568],['target'],278004,001,2022-09-16_11h48.57.323,lab psych tut 3,2022.2.4,59.688946098977496,
67,0,67,0,5,104.29690529100026,104.29690529100026,0.009505834000265168,[0.4411111111111111],[0.32222222222222224],[1],[0],[0],[1.371043125000142],['target'],278004,001,2022-09-16_11h48.57.323,lab psych tut 3,2022.2.4,59.688946098977496,
68,0,68,0,10,105.6898998329998,105.6898998329998,0.01740554199932376,[0.39444444444444443],[0.4711111111111111],[1],[0],[0],[1.6615640419995543],['target'],278004,001,2022-09-16_11h48.57.323,lab psych tut 3,2022.2.4,59.688946098977496,
69,0,69,0,5,107.36086087500007,107.36086087500007,0.008330499999829044,[0.25666666666666665],[0.2611111111111111],[1],[0],[0],[1.073082500000055],['target'],278004,001,2022-09-16_11h48.57.323,lab psych tut 3,2022.2.4,59.688946098977496,
70,0,70,0,10,108.45551479099959,108.45551479099959,0.016599874999883468,[0.43777777777777777],[-0.2111111111111111],[1],[0],[0],[1.2301827499995852],['target'],278004,001,2022-09-16_11h48.57.323,lab psych tut 3,2022.2.4,59.688946098977496,
71,0,71,0,10,109.70343216600031,109.70343216600031,0.015475250000235974,[-0.16333333333333333],[0.46555555555555556],[1],[0],[0],[3.048049500000161],['target'],278004,001,2022-09-16_11h48.57.323,lab psych tut 3,2022.2.4,59.688946098977496,
72,0,72,0,10,112.76995412500037,112.76995412500037,0.015439499999956752,[0.017777777777777778],[-0.2911111111111111],[1],[0],[0],[1.4143672090003747],['target'],278004,001,2022-09-16_11h48.57.323,lab psych tut 3,2022.2.4,59.688946098977496,
73,0,73,0,10,114.20246358300028,114.20246358300028,0.015142625000407861,[-0.45444444444444443],[0.3788888888888889],[1],[0],[0],[1.631965250000576],['target'],278004,001,2022-09-16_11h48.57.323,lab psych tut 3,2022.2.4,59.688946098977496,
74,0,74,0,10,115.85238324999955,115.85238324999955,0.015057874999911292,[-0.4211111111111111],[0.4855555555555556],[1],[0],[0],[3.0157892910001465],['target'],278004,001,2022-09-16_11h48.57.323,lab psych tut 3,2022.2.4,59.688946098977496,
75,0,75,0,5,118.8776385000001,118.8776385000001,0.008027042000321671,[-0.10666666666666667],[0.4777777777777778],[1],[0],[0],[1.2410719589997825],['target'],278004,001,2022-09-16_11h48.57.323,lab psych tut 3,2022.2.4,59.688946098977496,
76,0,76,0,10,120.13925795799969,120.13925795799969,0.0163057090003349,[-0.15888888888888889],[-0.38222222222222224],[1],[0],[0],[1.3458138340001824],['target'],278004,001,2022-09-16_11h48.57.323,lab psych tut 3,2022.2.4,59.688946098977496,
77,0,77,0,10,121.50338575000023,121.50338575000023,0.01537829100016097,[-0.3322222222222222],[-0.09444444444444444],[1],[0],[0],[1.0313899169996148],['target'],278004,001,2022-09-16_11h48.57.323,lab psych tut 3,2022.2.4,59.688946098977496,
78,0,78,0,10,122.5523373750002,122.5523373750002,0.014900000000125146,[-0.15333333333333332],[-0.3811111111111111],[1],[0],[0],[1.0323958339995443],['target'],278004,001,2022-09-16_11h48.57.323,lab psych tut 3,2022.2.4,59.688946098977496,
79,0,79,0,5,123.59463700000015,123.59463700000015,0.008452750000287779,[0.08666666666666667],[-0.44],[1],[0],[0],[1.139280499999586],['target'],278004,001,2022-09-16_11h48.57.323,lab psych tut 3,2022.2.4,59.688946098977496,
80,0,80,0,5,124.74636979099978,124.74636979099978,0.009104875000048196,[-0.13555555555555557],[0.48],[1],[0],[0],[1.3884888339998724],['target'],278004,001,2022-09-16_11h48.57.323,lab psych tut 3,2022.2.4,59.688946098977496,
81,0,81,0,5,126.14759400000003,126.14759400000003,0.009308874999987893,[0.4411111111111111],[-0.25555555555555554],[1],[0],[0],[1.6875530409997737],['target'],278004,001,2022-09-16_11h48.57.323,lab psych tut 3,2022.2.4,59.688946098977496,
82,0,82,0,5,127.84844708299988,127.84844708299988,0.010011792000113928,[-0.23],[-0.023333333333333334],[1],[0],[0],[1.4703465829998095],['target'],278004,001,2022-09-16_11h48.57.323,lab psych tut 3,2022.2.4,59.688946098977496,
83,0,83,0,10,129.3382248329999,129.3382248329999,0.01564479099943128,[0.16444444444444445],[0.2644444444444444],[1],[0],[0],[1.2469570409994049],['target'],278004,001,2022-09-16_11h48.57.323,lab psych tut 3,2022.2.4,59.688946098977496,
84,0,84,0,5,130.59516829099994,130.59516829099994,0.00866066700018564,[0.31333333333333335],[-0.4033333333333333],[1],[0],[0],[1.2725886250000258],['target'],278004,001,2022-09-16_11h48.57.323,lab psych tut 3,2022.2.4,59.688946098977496,
85,0,85,0,10,131.8902310000003,131.8902310000003,0.01718383299976267,[-0.13444444444444445],[0.3566666666666667],[1],[0],[0],[1.7290263329996378],['target'],278004,001,2022-09-16_11h48.57.323,lab psych tut 3,2022.2.4,59.688946098977496,
86,0,86,0,10,133.63728991599965,133.63728991599965,0.015414749999763444,[-0.47444444444444445],[0.29888888888888887],[1],[0],[0],[1.131382417000168],['target'],278004,001,2022-09-16_11h48.57.323,lab psych tut 3,2022.2.4,59.688946098977496,
87,0,87,0,5,134.77849770800003,134.77849770800003,0.008491665999827092,[0.29333333333333333],[-0.2111111111111111],[1],[0],[0],[1.1904280419994393],['target'],278004,001,2022-09-16_11h48.57.323,lab psych tut 3,2022.2.4,59.688946098977496,
88,0,88,0,5,135.98176975000024,135.98176975000024,0.009378540999932738,[-0.06777777777777778],[-0.22555555555555556],[1],[0],[0],[1.2531658750003771],['target'],278004,001,2022-09-16_11h48.57.323,lab psych tut 3,2022.2.4,59.688946098977496,
89,0,89,0,5,137.2476454159996,137.2476454159996,0.009592040999450546,[0.4022222222222222],[0.4811111111111111],[1],[0],[0],[1.6044955000006667],['target'],278004,001,2022-09-16_11h48.57.323,lab psych tut 3,2022.2.4,59.688946098977496,
90,0,90,0,10,138.87187825,138.87187825,0.015710042000137037,[-0.45222222222222225],[-0.31333333333333335],[1],[0],[0],[1.2468386250002368],['target'],278004,001,2022-09-16_11h48.57.323,lab psych tut 3,2022.2.4,59.688946098977496,
91,0,91,0,10,140.18939379099993,140.18939379099993,0.06715916699977242,[0.31222222222222223],[-0.05444444444444444],[1],[0],[0],[1.4132968339999934],['target'],278004,001,2022-09-16_11h48.57.323,lab psych tut 3,2022.2.4,59.688946098977496,
92,0,92,0,5,141.6121137910004,141.6121137910004,0.008379707999665698,[0.29555555555555557],[-0.3322222222222222],[1],[0],[0],[1.1892964999997275],['target'],278004,001,2022-09-16_11h48.57.323,lab psych tut 3,2022.2.4,59.688946098977496,
93,0,93,0,10,142.82202683299965,142.82202683299965,0.01650591700035875,[-0.3988888888888889],[0.3333333333333333],[1],[0],[0],[1.6303270420003173],['target'],278004,001,2022-09-16_11h48.57.323,lab psych tut 3,2022.2.4,59.688946098977496,
94,0,94,0,5,144.46208012500028,144.46208012500028,0.008335582999279723,[0.36444444444444446],[-0.36444444444444446],[1],[0],[0],[1.2385599580002236],['target'],278004,001,2022-09-16_11h48.57.323,lab psych tut 3,2022.2.4,59.688946098977496,
95,0,95,0,5,145.71381920800013,145.71381920800013,0.009408500000063214,[0.41333333333333333],[0.4022222222222222],[1],[0],[0],[1.6543738329992266],['target'],278004,001,2022-09-16_11h48.57.323,lab psych tut 3,2022.2.4,59.688946098977496,
96,0,96,0,10,147.38853633300005,147.38853633300005,0.01626241600024514,[0.2511111111111111],[-0.06777777777777778],[1],[0],[0],[1.1803612919993611],['target'],278004,001,2022-09-16_11h48.57.323,lab psych tut 3,2022.2.4,59.688946098977496,
97,0,97,0,10,148.5859005000002,148.5859005000002,0.01460437500008993,[-0.24222222222222223],[0.43333333333333335],[1],[0],[0],[1.9158512909998535],['target'],278004,001,2022-09-16_11h48.57.323,lab psych tut 3,2022.2.4,59.688946098977496,
98,0,98,0,10,150.51977375000024,150.51977375000024,0.015192957999715873,[-0.2788888888888889],[0.18333333333333332],[1],[0],[0],[1.0673527919998378],['target'],278004,001,2022-09-16_11h48.57.323,lab psych tut 3,2022.2.4,59.688946098977496,
99,0,99,0,10,151.60480749999988,151.60480749999988,0.014760166999622015,[-0.3277777777777778],[0.36333333333333334],[1],[0],[0],[1.3140703750004832],['target'],278004,001,2022-09-16_11h48.57.323,lab psych tut 3,2022.2.4,59.688946098977496,
100,0,100,0,5,152.92883237499973,152.92883237499973,0.00828799999999319,[0.33555555555555555],[0.25222222222222224],[1],[0],[0],[1.056887708999966],['target'],278004,001,2022-09-16_11h48.57.323,lab psych tut 3,2022.2.4,59.688946098977496,
101,0,101,0,10,154.00617116600006,154.00617116600006,0.016175458999896364,[0.11666666666666667],[0.14],[1],[0],[0],[0.9293018329999541],['target'],278004,001,2022-09-16_11h48.57.323,lab psych tut 3,2022.2.4,59.688946098977496,
102,0,102,0,10,154.95387833299992,154.95387833299992,0.015401749999909953,[-0.43222222222222223],[0.42444444444444446],[1],[0],[0],[1.0319038749994434],['target'],278004,001,2022-09-16_11h48.57.323,lab psych tut 3,2022.2.4,59.688946098977496,
103,0,103,0,5,155.99580691600022,155.99580691600022,0.008574958000281185,[-0.13777777777777778],[0.16555555555555557],[1],[0],[0],[0.8563252090007154],['target'],278004,001,2022-09-16_11h48.57.323,lab psych tut 3,2022.2.4,59.688946098977496,
104,0,104,0,10,156.87317712499953,156.87317712499953,0.016217499999584106,[0.03],[-0.06444444444444444],[1],[0],[0],[0.9126635410002564],['target'],278004,001,2022-09-16_11h48.57.323,lab psych tut 3,2022.2.4,59.688946098977496,
105,0,105,0,5,157.79540270800044,157.79540270800044,0.008504917000209389,[-0.21222222222222223],[-0.36444444444444446],[1],[0],[0],[0.9726012080000146],['target'],278004,001,2022-09-16_11h48.57.323,lab psych tut 3,2022.2.4,59.688946098977496,
106,0,106,0,10,158.78945120800017,158.78945120800017,0.016775291000158177,[-0.3655555555555556],[-0.14333333333333334],[1],[0],[0],[0.8625756250003178],['target'],278004,001,2022-09-16_11h48.57.323,lab psych tut 3,2022.2.4,59.688946098977496,
107,0,107,0,10,159.66976524999973,159.66976524999973,0.015151708000303188,[0.07666666666666666],[-0.15],[1],[0],[0],[0.9989752090004913],['target'],278004,001,2022-09-16_11h48.57.323,lab psych tut 3,2022.2.4,59.688946098977496,
108,0,108,0,5,160.67847504099973,160.67847504099973,0.008082583000032173,[-0.36],[0.45111111111111113],[1],[0],[0],[2.007833208000193],['target'],278004,001,2022-09-16_11h48.57.323,lab psych tut 3,2022.2.4,59.688946098977496,
109,0,109,0,10,162.70855720799955,162.70855720799955,0.017183124999974098,[0.31222222222222223],[-0.09777777777777778],[1],[0],[0],[1.3937912909996157],['target'],278004,001,2022-09-16_11h48.57.323,lab psych tut 3,2022.2.4,59.688946098977496,
110,0,110,0,10,164.11889395799972,164.11889395799972,0.014422416999877896,[0.19777777777777777],[-0.24444444444444444],[1],[0],[0],[1.0996129169998312],['target'],278004,001,2022-09-16_11h48.57.323,lab psych tut 3,2022.2.4,59.688946098977496,
111,0,111,0,5,165.22814391599968,165.22814391599968,0.00805308300004981,[-0.44333333333333336],[0.14555555555555555],[1],[0],[0],[1.0907010419996368],['target'],278004,001,2022-09-16_11h48.57.323,lab psych tut 3,2022.2.4,59.688946098977496,
112,0,112,0,10,166.34048487499967,166.34048487499967,0.016543374999855587,[-0.4711111111111111],[0.09444444444444444],[1],[0],[0],[0.9455347499997515],['target'],278004,001,2022-09-16_11h48.57.323,lab psych tut 3,2022.2.4,59.688946098977496,
113,0,113,0,5,167.2956290000002,167.2956290000002,0.008731625000109489,[0.36444444444444446],[-0.29],[1],[0],[0],[1.2055895000003147],['target'],278004,001,2022-09-16_11h48.57.323,lab psych tut 3,2022.2.4,59.688946098977496,
114,0,114,0,10,168.52363712500028,168.52363712500028,0.017087166999772307,[-0.23777777777777778],[0.4266666666666667],[1],[0],[0],[1.2957039170005373],['target'],278004,001,2022-09-16_11h48.57.323,lab psych tut 3,2022.2.4,59.688946098977496,
115,0,115,0,10,169.8363765410004,169.8363765410004,0.014635833000284038,[-0.43333333333333335],[0.39222222222222225],[1],[0],[0],[1.5662229159997878],['target'],278004,001,2022-09-16_11h48.57.323,lab psych tut 3,2022.2.4,59.688946098977496,
116,0,116,0,5,171.4123156659998,171.4123156659998,0.008271540999885474,[-0.04666666666666667],[0.38],[1],[0],[0],[1.1570842089995494],['target'],278004,001,2022-09-16_11h48.57.323,lab psych tut 3,2022.2.4,59.688946098977496,
117,0,117,0,10,172.59140258299976,172.59140258299976,0.017323000000033062,[-0.17888888888888888],[0.006666666666666667],[1],[0],[0],[1.0441026669996063],['target'],278004,001,2022-09-16_11h48.57.323,lab psych tut 3,2022.2.4,59.688946098977496,
118,0,118,0,10,173.6531109159996,173.6531109159996,0.014809041999797046,[-0.23444444444444446],[-0.4266666666666667],[1],[0],[0],[1.2331455000003189],['target'],278004,001,2022-09-16_11h48.57.323,lab psych tut 3,2022.2.4,59.688946098977496,
119,0,119,0,10,174.90361849999954,174.90361849999954,0.014947292000215384,[-0.23555555555555555],[0.05444444444444444],[1],[0],[0],[1.2150497920001726],['target'],278004,001,2022-09-16_11h48.57.323,lab psych tut 3,2022.2.4,59.688946098977496,
120,0,120,0,10,176.13679091599988,176.13679091599988,0.01525187500010361,[0.34],[-0.1288888888888889],[1],[0],[0],[1.1151993749999747],['target'],278004,001,2022-09-16_11h48.57.323,lab psych tut 3,2022.2.4,59.688946098977496,
121,0,121,0,10,177.27063104100034,177.27063104100034,0.015472334000151022,[0.06666666666666667],[-0.24444444444444444],[1],[0],[0],[0.9650357919999806],['target'],278004,001,2022-09-16_11h48.57.323,lab psych tut 3,2022.2.4,59.688946098977496,
122,0,122,0,10,178.25391783299983,178.25391783299983,0.015284834000340197,[0.1811111111111111],[0.16555555555555557],[1],[0],[0],[1.182048874999964],['target'],278004,001,2022-09-16_11h48.57.323,lab psych tut 3,2022.2.4,59.688946098977496,
123,0,123,0,10,179.45344516600017,179.45344516600017,0.0146772919997602,[0.4766666666666667],[0.14222222222222222],[1],[0],[0],[1.266221666999627],['target'],278004,001,2022-09-16_11h48.57.323,lab psych tut 3,2022.2.4,59.688946098977496,
124,0,124,0,10,180.7375705000004,180.7375705000004,0.015190250000159722,[0.3377777777777778],[0.14777777777777779],[1],[0],[0],[0.7315387089993237],[],278004,001,2022-09-16_11h48.57.323,lab psych tut 3,2022.2.4,59.688946098977496,
125,0,125,0,5,181.4789143750004,181.4789143750004,0.008445375000519562,[0.23444444444444446],[-0.14777777777777779],[1],[0],[0],[0.9393620000000737],[],278004,001,2022-09-16_11h48.57.323,lab psych tut 3,2022.2.4,59.688946098977496,
126,0,126,0,10,182.44075291599984,182.44075291599984,0.017268999999942025,[0.25555555555555554],[0.3211111111111111],[1],[0],[0],[2.7453786250007397],[],278004,001,2022-09-16_11h48.57.323,lab psych tut 3,2022.2.4,59.688946098977496,
127,0,127,0,5,185.19553499999984,185.19553499999984,0.008219040999392746,[0.4866666666666667],[-0.03111111111111111],[1],[0],[0],[0.9727565000002869],['target'],278004,001,2022-09-16_11h48.57.323,lab psych tut 3,2022.2.4,59.688946098977496,
128,0,128,0,5,186.1821824159997,186.1821824159997,0.009911332999763545,[-0.4011111111111111],[-0.08666666666666667],[1],[0],[0],[1.0366400829998383],[],278004,001,2022-09-16_11h48.57.323,lab psych tut 3,2022.2.4,59.688946098977496,
129,0,129,0,5,187.23077537500012,187.23077537500012,0.00918154200007848,[-0.2588888888888889],[-0.19],[1],[0],[0],[0.7217069580001407],['target'],278004,001,2022-09-16_11h48.57.323,lab psych tut 3,2022.2.4,59.688946098977496,
130,0,130,0,5,187.96502708299977,187.96502708299977,0.009214083000188111,[0.008888888888888889],[-0.14666666666666667],[1],[0],[0],[0.9039783750004062],['target'],278004,001,2022-09-16_11h48.57.323,lab psych tut 3,2022.2.4,59.688946098977496,
131,0,131,0,5,188.88046124999983,188.88046124999983,0.008894165999663528,[0.30333333333333334],[-0.27666666666666667],[1],[0],[0],[0.9213811660001738],['target'],278004,001,2022-09-16_11h48.57.323,lab psych tut 3,2022.2.4,59.688946098977496,
132,0,132,0,10,189.8224417499996,189.8224417499996,0.0161045409995495,[0.02666666666666667],[0.03111111111111111],[1],[0],[0],[1.2134968749996915],['target'],278004,001,2022-09-16_11h48.57.323,lab psych tut 3,2022.2.4,59.688946098977496,
133,0,133,0,10,191.05209520799963,191.05209520799963,0.014219832999515347,[0.0011111111111111111],[-0.2222222222222222],[1],[0],[0],[0.8666284999999334],['target'],278004,001,2022-09-16_11h48.57.323,lab psych tut 3,2022.2.4,59.688946098977496,
134,0,134,0,5,191.92902975000015,191.92902975000015,0.00861558300039178,[-0.03777777777777778],[-0.47444444444444445],[1],[0],[0],[1.1223694589998559],[],278004,001,2022-09-16_11h48.57.323,lab psych tut 3,2022.2.4,59.688946098977496,
135,0,135,0,10,193.07280362500023,193.07280362500023,0.016661708000356157,[-0.16555555555555557],[0.22666666666666666],[1],[0],[0],[1.1128684590003104],[],278004,001,2022-09-16_11h48.57.323,lab psych tut 3,2022.2.4,59.688946098977496,
136,0,136,0,5,194.1949998330001,194.1949998330001,0.008126790999995137,[0.03],[-0.46],[1],[0],[0],[1.0737162909999824],[],278004,001,2022-09-16_11h48.57.323,lab psych tut 3,2022.2.4,59.688946098977496,
137,0,137,0,5,195.28178366599968,195.28178366599968,0.009421499999916705,[-0.11666666666666667],[0.42333333333333334],[1],[0],[0],[1.070956292000119],['target'],278004,001,2022-09-16_11h48.57.323,lab psych tut 3,2022.2.4,59.688946098977496,
138,0,138,0,5,196.36486208299993,196.36486208299993,0.009229541999957291,[0.10888888888888888],[-0.3488888888888889],[1],[0],[0],[1.1215085419999014],['target'],278004,001,2022-09-16_11h48.57.323,lab psych tut 3,2022.2.4,59.688946098977496,
139,0,139,0,5,197.49891116599974,197.49891116599974,0.009121750000304019,[-0.43222222222222223],[-0.10111111111111111],[1],[0],[0],[0.9698309169998538],['target'],278004,001,2022-09-16_11h48.57.323,lab psych tut 3,2022.2.4,59.688946098977496,
140,0,140,0,5,198.48100029099987,198.48100029099987,0.009165458000097715,[-0.47333333333333333],[0.22],[1],[0],[0],[1.288854542000081],['target'],278004,001,2022-09-16_11h48.57.323,lab psych tut 3,2022.2.4,59.688946098977496,
141,0,141,0,10,199.79218520799986,199.79218520799986,0.01762349999989965,[0.38],[-0.33111111111111113],[1],[0],[0],[1.1941369169999234],[],278004,001,2022-09-16_11h48.57.323,lab psych tut 3,2022.2.4,59.688946098977496,
142,0,142,0,5,200.99605133299974,200.99605133299974,0.008715083999959461,[0.028888888888888888],[-0.23555555555555555],[1],[0],[0],[1.1556587080003737],['target'],278004,001,2022-09-16_11h48.57.323,lab psych tut 3,2022.2.4,59.688946098977496,
143,0,143,0,10,202.17307741599961,202.17307741599961,0.016353125000023283,[0.43],[-0.3988888888888889],[1],[0],[0],[1.2468489170005341],['target'],278004,001,2022-09-16_11h48.57.323,lab psych tut 3,2022.2.4,59.688946098977496,
144,0,144,0,10,203.4379179159996,203.4379179159996,0.015392083999358874,[0.31555555555555553],[0.10555555555555556],[1],[0],[0],[1.3990140420000898],['target'],278004,001,2022-09-16_11h48.57.323,lab psych tut 3,2022.2.4,59.688946098977496,
145,0,145,0,10,204.85460591599985,204.85460591599985,0.014699041000312718,[0.39555555555555555],[0.49],[1],[0],[0],[1.4314415419994475],['target'],278004,001,2022-09-16_11h48.57.323,lab psych tut 3,2022.2.4,59.688946098977496,
146,0,146,0,5,206.29552329099988,206.29552329099988,0.008217333000175131,[0.39111111111111113],[-0.4533333333333333],[1],[0],[0],[1.2906604589998096],['target'],278004,001,2022-09-16_11h48.57.323,lab psych tut 3,2022.2.4,59.688946098977496,
147,0,147,0,5,207.59935637499984,207.59935637499984,0.009228875000189873,[-0.07222222222222222],[-0.37444444444444447],[1],[0],[0],[1.0706625000002532],['target'],278004,001,2022-09-16_11h48.57.323,lab psych tut 3,2022.2.4,59.688946098977496,
148,0,148,0,10,208.68944958300017,208.68944958300017,0.015733999999611115,[-0.35555555555555557],[0.39],[1],[0],[0],[1.496541624999736],['target'],278004,001,2022-09-16_11h48.57.323,lab psych tut 3,2022.2.4,59.688946098977496,
149,0,149,0,5,210.19568066600004,210.19568066600004,0.008244624999861117,[-0.3277777777777778],[0.31333333333333335],[1],[0],[0],[0.8074634579998019],['target'],278004,001,2022-09-16_11h48.57.323,lab psych tut 3,2022.2.4,59.688946098977496,
150,0,150,0,5,211.01561491600023,211.01561491600023,0.009136249999755819,[0.4111111111111111],[-0.11],[1],[0],[0],[1.1867650829999548],['target'],278004,001,2022-09-16_11h48.57.323,lab psych tut 3,2022.2.4,59.688946098977496,
151,0,151,0,5,212.21481725000012,212.21481725000012,0.009174458000416053,[0.011111111111111112],[0.30333333333333334],[1],[0],[0],[1.439100834000783],['target'],278004,001,2022-09-16_11h48.57.323,lab psych tut 3,2022.2.4,59.688946098977496,
152,0,152,0,5,213.66619670799992,213.66619670799992,0.009249541999452049,[0.45222222222222225],[0.22666666666666666],[1],[0],[0],[1.1705995410002288],['target'],278004,001,2022-09-16_11h48.57.323,lab psych tut 3,2022.2.4,59.688946098977496,
153,0,153,0,10,214.85762400000021,214.85762400000021,0.01662862499961193,[0.30666666666666664],[0.1411111111111111],[1],[0],[0],[0.8791619590001574],['target'],278004,001,2022-09-16_11h48.57.323,lab psych tut 3,2022.2.4,59.688946098977496,
154,0,154,0,5,215.74612770800013,215.74612770800013,0.008485375000418571,[0.16333333333333333],[-0.08555555555555555],[1],[0],[0],[1.0235743329994875],['target'],278004,001,2022-09-16_11h48.57.323,lab psych tut 3,2022.2.4,59.688946098977496,
155,0,155,0,5,216.7824382079998,216.7824382079998,0.00900041700060683,[-0.29777777777777775],[0.35555555555555557],[1],[0],[0],[1.0708051669998895],['target'],278004,001,2022-09-16_11h48.57.323,lab psych tut 3,2022.2.4,59.688946098977496,
156,0,156,0,10,217.87468216599973,217.87468216599973,0.016795958999864524,[-0.04777777777777778],[0.03777777777777778],[1],[0],[0],[0.9783826659995611],['target'],278004,001,2022-09-16_11h48.57.323,lab psych tut 3,2022.2.4,59.688946098977496,
157,0,157,0,10,218.8713319999997,218.8713319999997,0.015551917000266258,[-0.35333333333333333],[0.4177777777777778],[1],[0],[0],[1.231650875000014],['target'],278004,001,2022-09-16_11h48.57.323,lab psych tut 3,2022.2.4,59.688946098977496,
158,0,158,0,5,220.11279733300034,220.11279733300034,0.008280334000119183,[0.46111111111111114],[0.27444444444444444],[1],[0],[0],[1.5397138329999507],['target'],278004,001,2022-09-16_11h48.57.323,lab psych tut 3,2022.2.4,59.688946098977496,
159,0,159,0,5,221.6657102500003,221.6657102500003,0.00941854200027592,[0.28],[0.05444444444444444],[1],[0],[0],[0.9370275420005783],['target'],278004,001,2022-09-16_11h48.57.323,lab psych tut 3,2022.2.4,59.688946098977496,
160,0,160,0,5,222.61464579099993,222.61464579099993,0.008795624999947904,[0.3422222222222222],[0.14555555555555555],[1],[0],[0],[0.8558127079995757],['target'],278004,001,2022-09-16_11h48.57.323,lab psych tut 3,2022.2.4,59.688946098977496,
161,0,161,0,5,223.4831624159997,223.4831624159997,0.009502791999693727,[-0.3211111111111111],[-0.10444444444444445],[1],[0],[0],[1.4023082920002707],['target'],278004,001,2022-09-16_11h48.57.323,lab psych tut 3,2022.2.4,59.688946098977496,
162,0,162,0,10,224.9088960830004,224.9088960830004,0.018300249999811058,[0.17333333333333334],[0.3433333333333333],[1],[0],[0],[1.111496999999872],['target'],278004,001,2022-09-16_11h48.57.323,lab psych tut 3,2022.2.4,59.688946098977496,
163,0,163,0,5,226.02980433300036,226.02980433300036,0.008563166999920213,[0.03],[0.15666666666666668],[1],[0],[0],[1.0388118339997163],['target'],278004,001,2022-09-16_11h48.57.323,lab psych tut 3,2022.2.4,59.688946098977496,
164,0,164,0,10,227.08883879099994,227.08883879099994,0.01574420899942197,[-0.33444444444444443],[-0.14333333333333334],[1],[0],[0],[1.147164791999785],['target'],278004,001,2022-09-16_11h48.57.323,lab psych tut 3,2022.2.4,59.688946098977496,
165,0,165,0,10,228.2531398330002,228.2531398330002,0.014427625000280386,[-0.4111111111111111],[0.06888888888888889],[1],[0],[0],[1.0330630420003217],['target'],278004,001,2022-09-16_11h48.57.323,lab psych tut 3,2022.2.4,59.688946098977496,
166,0,166,0,10,229.3034152500004,229.3034152500004,0.014354291999552515,[-0.4],[0.012222222222222223],[1],[0],[0],[1.0157238749998214],['target'],278004,001,2022-09-16_11h48.57.323,lab psych tut 3,2022.2.4,59.688946098977496,
167,0,167,0,10,230.33681554099985,230.33681554099985,0.014594041000236757,[0.3933333333333333],[-0.09222222222222222],[1],[0],[0],[1.266256083999906],['target'],278004,001,2022-09-16_11h48.57.323,lab psych tut 3,2022.2.4,59.688946098977496,
168,0,168,0,10,231.6200247910001,231.6200247910001,0.014359207999405044,[0.44333333333333336],[-0.22777777777777777],[1],[0],[0],[1.0163798329995188],['target'],278004,001,2022-09-16_11h48.57.323,lab psych tut 3,2022.2.4,59.688946098977496,
169,0,169,0,10,232.65445224999985,232.65445224999985,0.015140250000513333,[0.19],[-0.2866666666666667],[1],[0],[0],[1.0481968750000306],['target'],278004,001,2022-09-16_11h48.57.323,lab psych tut 3,2022.2.4,59.688946098977496,
170,0,170,0,10,233.72037233300034,233.72037233300034,0.015070166999976209,[-0.25555555555555554],[0.31222222222222223],[1],[0],[0],[1.348897417000444],['target'],278004,001,2022-09-16_11h48.57.323,lab psych tut 3,2022.2.4,59.688946098977496,
171,0,171,0,5,235.0794315410003,235.0794315410003,0.00863687499986554,[-0.35333333333333333],[0.30333333333333334],[1],[0],[0],[0.9727446669994606],['target'],278004,001,2022-09-16_11h48.57.323,lab psych tut 3,2022.2.4,59.688946098977496,
172,0,172,0,10,236.07301654099956,236.07301654099956,0.016256791999694542,[-0.28444444444444444],[0.07333333333333333],[1],[0],[0],[1.1637425409999196],['target'],278004,001,2022-09-16_11h48.57.323,lab psych tut 3,2022.2.4,59.688946098977496,
173,0,173,0,5,237.24600166599976,237.24600166599976,0.007877500000176951,[0.03333333333333333],[-0.3844444444444444],[1],[0],[0],[1.4065139590002218],['target'],278004,001,2022-09-16_11h48.57.323,lab psych tut 3,2022.2.4,59.688946098977496,
174,0,174,0,10,238.67366054099966,238.67366054099966,0.01653662499938946,[0.025555555555555557],[-0.22444444444444445],[1],[0],[0],[0.8298830829999133],['target'],278004,001,2022-09-16_11h48.57.323,lab psych tut 3,2022.2.4,59.688946098977496,
175,0,175,0,5,239.51300041600007,239.51300041600007,0.008551084000828268,[0.15555555555555556],[0.1622222222222222],[1],[0],[0],[1.0892406659995686],['target'],278004,001,2022-09-16_11h48.57.323,lab psych tut 3,2022.2.4,59.688946098977496,
176,0,176,0,5,240.61514654100029,240.61514654100029,0.009115374999964843,[-0.006666666666666667],[0.22777777777777777],[1],[0],[0],[0.8375462499998321],[],278004,001,2022-09-16_11h48.57.323,lab psych tut 3,2022.2.4,59.688946098977496,
177,0,177,0,10,241.47277720799957,241.47277720799957,0.016048833000240847,[0.23444444444444446],[-0.3011111111111111],[1],[0],[0],[1.1806180829998993],['target'],278004,001,2022-09-16_11h48.57.323,lab psych tut 3,2022.2.4,59.688946098977496,
178,0,178,0,10,242.6703964999997,242.6703964999997,0.014578624999558087,[-0.03],[-0.3988888888888889],[1],[0],[0],[0.833078167000167],['target'],278004,001,2022-09-16_11h48.57.323,lab psych tut 3,2022.2.4,59.688946098977496,
179,0,179,0,5,243.5132955830004,243.5132955830004,0.008346624999830965,[-0.5022222222222222],[-0.2088888888888889],[1],[0],[0],[1.0063380000001416],['target'],278004,001,2022-09-16_11h48.57.323,lab psych tut 3,2022.2.4,59.688946098977496,
180,0,180,0,10,244.53975320799964,244.53975320799964,0.015602708000187704,[-0.09555555555555556],[0.24888888888888888],[1],[0],[0],[1.296829166999487],['target'],278004,001,2022-09-16_11h48.57.323,lab psych tut 3,2022.2.4,59.688946098977496,
181,0,181,0,5,245.84666933300014,245.84666933300014,0.008626875000118162,[0.08444444444444445],[0.3566666666666667],[1],[0],[0],[0.9402114169997731],['target'],278004,001,2022-09-16_11h48.57.323,lab psych tut 3,2022.2.4,59.688946098977496,
182,0,182,0,5,246.80049320800026,246.80049320800026,0.009735874999933003,[-0.07],[0.4166666666666667],[1],[0],[0],[0.9029457500000717],['target'],278004,001,2022-09-16_11h48.57.323,lab psych tut 3,2022.2.4,59.688946098977496,
183,0,183,0,10,247.72472670800016,247.72472670800016,0.017005417000291345,[-0.15],[-0.1322222222222222],[1],[0],[0],[1.1626254170005268],['target'],278004,001,2022-09-16_11h48.57.323,lab psych tut 3,2022.2.4,59.688946098977496,
184,0,184,0,5,248.89687358300034,248.89687358300034,0.008562416999666311,[0.06666666666666667],[-0.04777777777777778],[1],[0],[0],[1.138940707999609],['target'],278004,001,2022-09-16_11h48.57.323,lab psych tut 3,2022.2.4,59.688946098977496,
185,0,185,0,5,250.04898374999993,250.04898374999993,0.00932004100013728,[-0.18666666666666668],[0.016666666666666666],[1],[0],[0],[0.9212006660000043],['target'],278004,001,2022-09-16_11h48.57.323,lab psych tut 3,2022.2.4,59.688946098977496,
186,0,186,0,5,250.98253912499968,250.98253912499968,0.009222749999935331,[-0.29444444444444445],[-0.47],[1],[0],[0],[1.0208044170003632],['target'],278004,001,2022-09-16_11h48.57.323,lab psych tut 3,2022.2.4,59.688946098977496,
187,0,187,0,5,252.01478858300015,252.01478858300015,0.00887691600019025,[0.36],[-0.014444444444444444],[1],[0],[0],[0.9873214170002029],['target'],278004,001,2022-09-16_11h48.57.323,lab psych tut 3,2022.2.4,59.688946098977496,
188,0,188,0,10,253.02359404100025,253.02359404100025,0.016677374999744643,[0.14333333333333334],[0.2577777777777778],[1],[0],[0],[1.0133587500004069],[],278004,001,2022-09-16_11h48.57.323,lab psych tut 3,2022.2.4,59.688946098977496,
189,0,189,0,5,254.04651645800004,254.04651645800004,0.008424833000390208,[-0.06777777777777778],[-0.18],[1],[0],[0],[0.9555984170001466],['target'],278004,001,2022-09-16_11h48.57.323,lab psych tut 3,2022.2.4,59.688946098977496,
190,0,190,0,5,255.01548774999992,255.01548774999992,0.009441417000743968,[0.23666666666666666],[0.4766666666666667],[1],[0],[0],[1.404994749999787],['target'],278004,001,2022-09-16_11h48.57.323,lab psych tut 3,2022.2.4,59.688946098977496,
191,0,191,0,10,256.4404940000004,256.4404940000004,0.015939624999191437,[-0.4255555555555556],[-0.23666666666666666],[1],[0],[0],[1.1965113750002274],['target'],278004,001,2022-09-16_11h48.57.323,lab psych tut 3,2022.2.4,59.688946098977496,
192,0,192,0,5,257.6467037499997,257.6467037499997,0.00839979200009111,[-0.15],[0.1411111111111111],[1],[0],[0],[1.2562223329996414],['target'],278004,001,2022-09-16_11h48.57.323,lab psych tut 3,2022.2.4,59.688946098977496,
193,0,193,0,10,258.92392704099984,258.92392704099984,0.016370583000025363,[0.07],[-0.01],[1],[0],[0],[1.1631480839996584],['target'],278004,001,2022-09-16_11h48.57.323,lab psych tut 3,2022.2.4,59.688946098977496,
194,0,194,0,5,260.09657316599987,260.09657316599987,0.00853020800059312,[-0.35777777777777775],[0.07888888888888888],[1],[0],[0],[1.1392670420000286],['target'],278004,001,2022-09-16_11h48.57.323,lab psych tut 3,2022.2.4,59.688946098977496,
195,0,195,0,10,261.25676558299983,261.25676558299983,0.016434041999673354,[0.051111111111111114],[-0.37555555555555553],[1],[0],[0],[1.4298162499999307],['target'],278004,001,2022-09-16_11h48.57.323,lab psych tut 3,2022.2.4,59.688946098977496,
196,0,196,0,10,262.703849083,262.703849083,0.014730167000379879,[-0.25555555555555554],[0.4533333333333333],[1],[0],[0],[1.3826765420008087],['target'],278004,001,2022-09-16_11h48.57.323,lab psych tut 3,2022.2.4,59.688946098977496,
197,0,197,0,5,264.096487541,264.096487541,0.00828487499984476,[-0.39111111111111113],[0.13555555555555557],[1],[0],[0],[1.2396762500002296],['target'],278004,001,2022-09-16_11h48.57.323,lab psych tut 3,2022.2.4,59.688946098977496,
198,0,198,0,10,265.3570896250003,265.3570896250003,0.016240332999586826,[0.29777777777777775],[0.2222222222222222],[1],[0],[0],[1.4465275000002293],['target'],278004,001,2022-09-16_11h48.57.323,lab psych tut 3,2022.2.4,59.688946098977496,
199,0,199,0,5,266.81327812499967,266.81327812499967,0.008501124999384047,[-0.18444444444444444],[0.43666666666666665],[1],[0],[0],[1.4721076250007172],['target'],278004,001,2022-09-16_11h48.57.323,lab psych tut 3,2022.2.4,59.688946098977496,
